Folder: L5_Difractiva/films/spectrometro uv1000 (part 2)

File: 20230310_Sample-06.txt
"File_221110_221150 - RawData"
"Wavelength nm.","Abs."
300.00,0.01785
303.00,0.05756
306.00,0.03670
309.00,0.02061
312.00,0.01260
315.00,0.00339
318.00,-0.00233
321.00,-0.00650
324.00,-0.01216
327.00,-0.01443
330.00,-0.01749
333.00,-0.01909
336.00,-0.02023
339.00,-0.02187
342.00,-0.02251
345.00,-0.02287
348.00,-0.02341
351.00,-0.02391
354.00,-0.02396
357.00,-0.02399
360.00,-0.02385
363.00,-0.02383
366.00,-0.02406
369.00,-0.02396
372.00,-0.02345
375.00,-0.02353
378.00,-0.02309
381.00,-0.02336
384.00,-0.02341
387.00,-0.02341
390.00,-0.02338
393.00,-0.02312
396.00,-0.02330
399.00,-0.02328
402.00,-0.02309
405.00,-0.02296
408.00,-0.02280
411.00,-0.02275
414.00,-0.02257
417.00,-0.02257
420.00,-0.02245
423.00,-0.02231
426.00,-0.02226
429.00,-0.02223
432.00,-0.02173
435.00,-0.02191
438.00,-0.02182
441.00,-0.02168
444.00,-0.02158
447.00,-0.02141
450.00,-0.02173
453.00,-0.02142
456.00,-0.02119
459.00,-0.02130
462.00,-0.02129
465.00,-0.02097
468.00,-0.02101
471.00,-0.02097
474.00,-0.02086
477.00,-0.02075
480.00,-0.02069
483.00,-0.02072
486.00,-0.02065
489.00,-0.02028
492.00,-0.02022
495.00,-0.02040
498.00,-0.02031
501.00,-0.02008
504.00,-0.02008
507.00,-0.02013
510.00,-0.02000
513.00,-0.01999
516.00,-0.01971
519.00,-0.01955
522.00,-0.01978
525.00,-0.01991
528.00,-0.01955
531.00,-0.01936
534.00,-0.01926
537.00,-0.01950
540.00,-0.01939
543.00,-0.01945
546.00,-0.01894
549.00,-0.01875
552.00,-0.01888
555.00,-0.01910
558.00,-0.01901
561.00,-0.01881
564.00,-0.01849
567.00,-0.01837
570.00,-0.01859
573.00,-0.01875
576.00,-0.01860
579.00,-0.01834
582.00,-0.01802
585.00,-0.01801
588.00,-0.01802
591.00,-0.01840
594.00,-0.01807
597.00,-0.01797
600.00,-0.01764
603.00,-0.01753
606.00,-0.01765
609.00,-0.01788
612.00,-0.01797
615.00,-0.01785
618.00,-0.01747
621.00,-0.01729
624.00,-0.01703
627.00,-0.01727
630.00,-0.01743
633.00,-0.01767
636.00,-0.01738
639.00,-0.01720
642.00,-0.01685
645.00,-0.01653
648.00,-0.01653
651.00,-0.01668
654.00,-0.01698
657.00,-0.01701
660.00,-0.01688
663.00,-0.01648
666.00,-0.01619
669.00,-0.01601
672.00,-0.01604
675.00,-0.01648
678.00,-0.01668
681.00,-0.01678
684.00,-0.01651
687.00,-0.01610
690.00,-0.01575
693.00,-0.01552
696.00,-0.01559
699.00,-0.01579
702.00,-0.01593
705.00,-0.01630
708.00,-0.01613
711.00,-0.01602
714.00,-0.01549
717.00,-0.01526
720.00,-0.01498
723.00,-0.01500
726.00,-0.01520
729.00,-0.01547
732.00,-0.01570
735.00,-0.01582
738.00,-0.01573
741.00,-0.01547
744.00,-0.01485
747.00,-0.01454
750.00,-0.01430
753.00,-0.01445
756.00,-0.01450
759.00,-0.01498
762.00,-0.01526
765.00,-0.01552
768.00,-0.01506
771.00,-0.01508
774.00,-0.01451
777.00,-0.01410
780.00,-0.01364
783.00,-0.01376
786.00,-0.01382
789.00,-0.01401
792.00,-0.01430
795.00,-0.01466
798.00,-0.01483
801.00,-0.01486
804.00,-0.01465
807.00,-0.01422
810.00,-0.01382
813.00,-0.01344
816.00,-0.01315
819.00,-0.01309
822.00,-0.01311
825.00,-0.01352
828.00,-0.01378
831.00,-0.01414
834.00,-0.01427
837.00,-0.01428
840.00,-0.01425
843.00,-0.01392
846.00,-0.01361
849.00,-0.01312
852.00,-0.01254
855.00,-0.01237
858.00,-0.01239
861.00,-0.01262
864.00,-0.01277
867.00,-0.01314
870.00,-0.01343
873.00,-0.01384
876.00,-0.01393
879.00,-0.01392
882.00,-0.01357
885.00,-0.01324
888.00,-0.01276
891.00,-0.01244
894.00,-0.01193
897.00,-0.01178
900.00,-0.01186
903.00,-0.01198
906.00,-0.01202
909.00,-0.01218
912.00,-0.01297
915.00,-0.01332
918.00,-0.01352
921.00,-0.01349
924.00,-0.01350
927.00,-0.01309
930.00,-0.01311
933.00,-0.01239
936.00,-0.01196
939.00,-0.01170
942.00,-0.01131
945.00,-0.01112
948.00,-0.01102
951.00,-0.01120
954.00,-0.01158
957.00,-0.01186
960.00,-0.01221
963.00,-0.01271
966.00,-0.01302
969.00,-0.01314
972.00,-0.01292
975.00,-0.01311
978.00,-0.01266
981.00,-0.01250
984.00,-0.01180
987.00,-0.01132
990.00,-0.01102
993.00,-0.01067
996.00,-0.01056
999.00,-0.01050
1002.00,-0.01062
1005.00,-0.01065
1008.00,-0.01100
1011.00,-0.01146
1014.00,-0.01161
1017.00,-0.01213
1020.00,-0.01225
1023.00,-0.01244
1026.00,-0.01248
1029.00,-0.01251
1032.00,-0.01224
1035.00,-0.01193
1038.00,-0.01169
1041.00,-0.01117
1044.00,-0.01071
1047.00,-0.01042
1050.00,-0.01022
1053.00,-0.00974
1056.00,-0.00955
1059.00,-0.00937
1062.00,-0.00943
1065.00,-0.00983
1068.00,-0.01003
1071.00,-0.01048
1074.00,-0.01086
1077.00,-0.01096
1080.00,-0.01140
1083.00,-0.01158
1086.00,-0.01189
1089.00,-0.01193
1092.00,-0.01181
1095.00,-0.01146
1098.00,-0.01117
1100.00,-0.01112

File: 20230310_Sample-07.txt
"File_221110_221826 - RawData"
"Wavelength nm.","Abs."
300.00,-0.42789
303.00,-0.17418
306.00,-0.11026
309.00,-0.05016
312.00,-0.02426
315.00,-0.01750
318.00,-0.01379
321.00,-0.01457
324.00,-0.01587
327.00,-0.01645
330.00,-0.01830
333.00,-0.01929
336.00,-0.01965
339.00,-0.02118
342.00,-0.02151
345.00,-0.02185
348.00,-0.02203
351.00,-0.02248
354.00,-0.02245
357.00,-0.02258
360.00,-0.02249
363.00,-0.02258
366.00,-0.02251
369.00,-0.02232
372.00,-0.02222
375.00,-0.02197
378.00,-0.02187
381.00,-0.02185
384.00,-0.02197
387.00,-0.02203
390.00,-0.02179
393.00,-0.02164
396.00,-0.02171
399.00,-0.02162
402.00,-0.02151
405.00,-0.02145
408.00,-0.02132
411.00,-0.02121
414.00,-0.02115
417.00,-0.02107
420.00,-0.02087
423.00,-0.02098
426.00,-0.02084
429.00,-0.02077
432.00,-0.02032
435.00,-0.02032
438.00,-0.02034
441.00,-0.02032
444.00,-0.02034
447.00,-0.01997
450.00,-0.02023
453.00,-0.01991
456.00,-0.01987
459.00,-0.01999
462.00,-0.01971
465.00,-0.01955
468.00,-0.01970
471.00,-0.01959
474.00,-0.01930
477.00,-0.01944
480.00,-0.01939
483.00,-0.01910
486.00,-0.01910
489.00,-0.01915
492.00,-0.01894
495.00,-0.01883
498.00,-0.01886
501.00,-0.01875
504.00,-0.01875
507.00,-0.01878
510.00,-0.01845
513.00,-0.01857
516.00,-0.01830
519.00,-0.01837
522.00,-0.01846
525.00,-0.01826
528.00,-0.01826
531.00,-0.01802
534.00,-0.01801
537.00,-0.01801
540.00,-0.01785
543.00,-0.01791
546.00,-0.01756
549.00,-0.01762
552.00,-0.01755
555.00,-0.01753
558.00,-0.01733
561.00,-0.01750
564.00,-0.01720
567.00,-0.01730
570.00,-0.01721
573.00,-0.01723
576.00,-0.01703
579.00,-0.01724
582.00,-0.01694
585.00,-0.01689
588.00,-0.01686
591.00,-0.01680
594.00,-0.01660
597.00,-0.01674
600.00,-0.01662
603.00,-0.01649
606.00,-0.01656
609.00,-0.01636
612.00,-0.01636
615.00,-0.01613
618.00,-0.01611
621.00,-0.01631
624.00,-0.01607
627.00,-0.01622
630.00,-0.01587
633.00,-0.01591
636.00,-0.01585
639.00,-0.01573
642.00,-0.01596
645.00,-0.01566
648.00,-0.01552
651.00,-0.01555
654.00,-0.01544
657.00,-0.01544
660.00,-0.01544
663.00,-0.01529
666.00,-0.01540
669.00,-0.01534
672.00,-0.01514
675.00,-0.01541
678.00,-0.01506
681.00,-0.01501
684.00,-0.01517
687.00,-0.01508
690.00,-0.01485
693.00,-0.01491
696.00,-0.01476
699.00,-0.01468
702.00,-0.01474
705.00,-0.01476
708.00,-0.01433
711.00,-0.01466
714.00,-0.01456
717.00,-0.01437
720.00,-0.01437
723.00,-0.01431
726.00,-0.01422
729.00,-0.01422
732.00,-0.01427
735.00,-0.01421
738.00,-0.01396
741.00,-0.01418
744.00,-0.01407
747.00,-0.01384
750.00,-0.01385
753.00,-0.01408
756.00,-0.01385
759.00,-0.01361
762.00,-0.01381
765.00,-0.01395
768.00,-0.01353
771.00,-0.01363
774.00,-0.01367
777.00,-0.01358
780.00,-0.01340
783.00,-0.01344
786.00,-0.01358
789.00,-0.01344
792.00,-0.01332
795.00,-0.01328
798.00,-0.01341
801.00,-0.01346
804.00,-0.01315
807.00,-0.01294
810.00,-0.01305
813.00,-0.01315
816.00,-0.01306
819.00,-0.01282
822.00,-0.01291
825.00,-0.01291
828.00,-0.01309
831.00,-0.01282
834.00,-0.01265
837.00,-0.01285
840.00,-0.01283
843.00,-0.01262
846.00,-0.01260
849.00,-0.01262
852.00,-0.01265
855.00,-0.01248
858.00,-0.01242
861.00,-0.01239
864.00,-0.01244
867.00,-0.01263
870.00,-0.01239
873.00,-0.01219
876.00,-0.01224
879.00,-0.01239
882.00,-0.01230
885.00,-0.01225
888.00,-0.01201
891.00,-0.01204
894.00,-0.01213
897.00,-0.01204
900.00,-0.01213
903.00,-0.01196
906.00,-0.01176
909.00,-0.01170
912.00,-0.01227
915.00,-0.01225
918.00,-0.01183
921.00,-0.01161
924.00,-0.01172
927.00,-0.01175
930.00,-0.01218
933.00,-0.01164
936.00,-0.01137
939.00,-0.01151
942.00,-0.01170
945.00,-0.01190
948.00,-0.01172
951.00,-0.01164
954.00,-0.01141
957.00,-0.01141
960.00,-0.01155
963.00,-0.01172
966.00,-0.01164
969.00,-0.01131
972.00,-0.01109
975.00,-0.01138
978.00,-0.01140
981.00,-0.01161
984.00,-0.01131
987.00,-0.01108
990.00,-0.01097
993.00,-0.01108
996.00,-0.01123
999.00,-0.01143
1002.00,-0.01138
1005.00,-0.01117
1008.00,-0.01096
1011.00,-0.01088
1014.00,-0.01080
1017.00,-0.01097
1020.00,-0.01099
1023.00,-0.01100
1026.00,-0.01086
1029.00,-0.01071
1032.00,-0.01054
1035.00,-0.01057
1038.00,-0.01096
1041.00,-0.01088
1044.00,-0.01086
1047.00,-0.01073
1050.00,-0.01060
1053.00,-0.01031
1056.00,-0.01042
1059.00,-0.01045
1062.00,-0.01048
1065.00,-0.01056
1068.00,-0.01035
1071.00,-0.01022
1074.00,-0.01015
1077.00,-0.00984
1080.00,-0.01030
1083.00,-0.01038
1086.00,-0.01053
1089.00,-0.01039
1092.00,-0.01013
1095.00,-0.00975
1098.00,-0.00970
1100.00,-0.00993

File: 20230310_Sample-07_back.txt
"File_221110_221531 - RawData"
"Wavelength nm.";"Abs."
300,00;-1,65318
303,00;-1,19426
306,00;-0,86269
309,00;-0,59528
312,00;-0,40208
315,00;-0,27542
318,00;-0,19302
321,00;-0,13962
324,00;-0,10533
327,00;-0,08170
330,00;-0,06668
333,00;-0,05589
336,00;-0,04843
339,00;-0,04324
342,00;-0,03702
345,00;-0,03407
348,00;-0,03264
351,00;-0,03177
354,00;-0,03017
357,00;-0,03003
360,00;-0,02942
363,00;-0,02863
366,00;-0,02831
369,00;-0,02829
372,00;-0,02831
375,00;-0,02827
378,00;-0,02800
381,00;-0,02783
384,00;-0,02759
387,00;-0,02751
390,00;-0,02696
393,00;-0,02687
396,00;-0,02690
399,00;-0,02678
402,00;-0,02664
405,00;-0,02660
408,00;-0,02641
411,00;-0,02625
414,00;-0,02606
417,00;-0,02586
420,00;-0,02557
423,00;-0,02533
426,00;-0,02533
429,00;-0,02538
432,00;-0,02554
435,00;-0,02577
438,00;-0,02571
441,00;-0,02515
444,00;-0,02472
447,00;-0,02466
450,00;-0,02538
453,00;-0,02527
456,00;-0,02457
459,00;-0,02405
462,00;-0,02458
465,00;-0,02480
468,00;-0,02403
471,00;-0,02373
474,00;-0,02438
477,00;-0,02443
480,00;-0,02351
483,00;-0,02376
486,00;-0,02428
489,00;-0,02313
492,00;-0,02365
495,00;-0,02385
498,00;-0,02281
501,00;-0,02350
504,00;-0,02353
507,00;-0,02269
510,00;-0,02359
513,00;-0,02266
516,00;-0,02307
519,00;-0,02313
522,00;-0,02257
525,00;-0,02341
528,00;-0,02226
531,00;-0,02304
534,00;-0,02232
537,00;-0,02252
540,00;-0,02254
543,00;-0,02217
546,00;-0,02264
549,00;-0,02190
552,00;-0,02263
555,00;-0,02170
558,00;-0,02246
561,00;-0,02151
564,00;-0,02248
567,00;-0,02145
570,00;-0,02242
573,00;-0,02148
576,00;-0,02220
579,00;-0,02162
582,00;-0,02194
585,00;-0,02176
588,00;-0,02156
591,00;-0,02199
594,00;-0,02103
597,00;-0,02208
600,00;-0,02100
603,00;-0,02191
606,00;-0,02116
609,00;-0,02168
612,00;-0,02170
615,00;-0,02112
618,00;-0,02182
621,00;-0,02098
624,00;-0,02177
627,00;-0,02142
630,00;-0,02104
633,00;-0,02179
636,00;-0,02095
639,00;-0,02159
642,00;-0,02159
645,00;-0,02092
648,00;-0,02151
651,00;-0,02075
654,00;-0,02089
657,00;-0,02158
660,00;-0,02075
663,00;-0,02112
666,00;-0,02141
669,00;-0,02066
672,00;-0,02130
675,00;-0,02138
678,00;-0,02057
681,00;-0,02126
684,00;-0,02126
687,00;-0,02074
690,00;-0,02121
693,00;-0,02116
696,00;-0,02051
699,00;-0,02124
702,00;-0,02106
705,00;-0,02057
708,00;-0,02097
711,00;-0,02138
714,00;-0,02055
717,00;-0,02090
720,00;-0,02122
723,00;-0,02081
726,00;-0,02074
729,00;-0,02129
732,00;-0,02122
735,00;-0,02063
738,00;-0,02101
741,00;-0,02138
744,00;-0,02080
747,00;-0,02077
750,00;-0,02124
753,00;-0,02115
756,00;-0,02066
759,00;-0,02101
762,00;-0,02145
765,00;-0,02124
768,00;-0,02061
771,00;-0,02133
774,00;-0,02142
777,00;-0,02097
780,00;-0,02086
783,00;-0,02127
786,00;-0,02147
789,00;-0,02106
792,00;-0,02098
795,00;-0,02141
798,00;-0,02144
801,00;-0,02115
804,00;-0,02106
807,00;-0,02124
810,00;-0,02133
813,00;-0,02116
816,00;-0,02100
819,00;-0,02122
822,00;-0,02147
825,00;-0,02124
828,00;-0,02109
831,00;-0,02115
834,00;-0,02145
837,00;-0,02132
840,00;-0,02106
843,00;-0,02107
846,00;-0,02141
849,00;-0,02153
852,00;-0,02124
855,00;-0,02100
858,00;-0,02126
861,00;-0,02153
864,00;-0,02132
867,00;-0,02113
870,00;-0,02104
873,00;-0,02116
876,00;-0,02145
879,00;-0,02141
882,00;-0,02109
885,00;-0,02110
888,00;-0,02119
891,00;-0,02144
894,00;-0,02141
897,00;-0,02106
900,00;-0,02107
903,00;-0,02138
906,00;-0,02135
909,00;-0,02104
912,00;-0,02122
915,00;-0,02118
918,00;-0,02129
921,00;-0,02142
924,00;-0,02150
927,00;-0,02104
930,00;-0,02116
933,00;-0,02092
936,00;-0,02110
939,00;-0,02139
942,00;-0,02126
945,00;-0,02113
948,00;-0,02083
951,00;-0,02109
954,00;-0,02121
957,00;-0,02129
960,00;-0,02104
963,00;-0,02094
966,00;-0,02097
969,00;-0,02103
972,00;-0,02113
975,00;-0,02126
978,00;-0,02089
981,00;-0,02083
984,00;-0,02049
987,00;-0,02075
990,00;-0,02104
993,00;-0,02118
996,00;-0,02103
999,00;-0,02084
1002,00;-0,02060
1005,00;-0,02060
1008,00;-0,02086
1011,00;-0,02107
1014,00;-0,02084
1017,00;-0,02060
1020,00;-0,02037
1023,00;-0,02026
1026,00;-0,02034
1029,00;-0,02078
1032,00;-0,02081
1035,00;-0,02068
1038,00;-0,02046
1041,00;-0,01996
1044,00;-0,01997
1047,00;-0,02037
1050,00;-0,02072
1053,00;-0,02075
1056,00;-0,02051
1059,00;-0,01997
1062,00;-0,01961
1065,00;-0,01967
1068,00;-0,01991
1071,00;-0,02026
1074,00;-0,02046
1077,00;-0,02008
1080,00;-0,01999
1083,00;-0,01953
1086,00;-0,01959
1089,00;-0,01956
1092,00;-0,01982
1095,00;-0,02010
1098,00;-0,02016
1100,00;-0,02028

File: 20230310_Sample-08.txt
"File_221110_222036 - RawData"
"Wavelength nm.";"Abs."
300,00;0,01990
303,00;0,02994
306,00;0,00267
309,00;0,00626
312,00;-0,00056
315,00;-0,00569
318,00;-0,00943
321,00;-0,01366
324,00;-0,01683
327,00;-0,01845
330,00;-0,01974
333,00;-0,02141
336,00;-0,02219
339,00;-0,02290
342,00;-0,02373
345,00;-0,02393
348,00;-0,02412
351,00;-0,02458
354,00;-0,02425
357,00;-0,02422
360,00;-0,02422
363,00;-0,02422
366,00;-0,02406
369,00;-0,02394
372,00;-0,02391
375,00;-0,02348
378,00;-0,02345
381,00;-0,02341
384,00;-0,02321
387,00;-0,02354
390,00;-0,02332
393,00;-0,02330
396,00;-0,02347
399,00;-0,02324
402,00;-0,02315
405,00;-0,02286
408,00;-0,02278
411,00;-0,02269
414,00;-0,02255
417,00;-0,02269
420,00;-0,02249
423,00;-0,02248
426,00;-0,02232
429,00;-0,02222
432,00;-0,02196
435,00;-0,02199
438,00;-0,02190
441,00;-0,02180
444,00;-0,02155
447,00;-0,02155
450,00;-0,02171
453,00;-0,02147
456,00;-0,02147
459,00;-0,02122
462,00;-0,02110
465,00;-0,02124
468,00;-0,02090
471,00;-0,02075
474,00;-0,02084
477,00;-0,02081
480,00;-0,02072
483,00;-0,02060
486,00;-0,02057
489,00;-0,02040
492,00;-0,02043
495,00;-0,02017
498,00;-0,02023
501,00;-0,02010
504,00;-0,02017
507,00;-0,02020
510,00;-0,01993
513,00;-0,01997
516,00;-0,01981
519,00;-0,01994
522,00;-0,01973
525,00;-0,01970
528,00;-0,01945
531,00;-0,01939
534,00;-0,01944
537,00;-0,01929
540,00;-0,01912
543,00;-0,01903
546,00;-0,01909
549,00;-0,01874
552,00;-0,01891
555,00;-0,01889
558,00;-0,01877
561,00;-0,01866
564,00;-0,01869
567,00;-0,01845
570,00;-0,01862
573,00;-0,01837
576,00;-0,01842
579,00;-0,01828
582,00;-0,01836
585,00;-0,01813
588,00;-0,01801
591,00;-0,01817
594,00;-0,01765
597,00;-0,01788
600,00;-0,01768
603,00;-0,01784
606,00;-0,01778
609,00;-0,01773
612,00;-0,01762
615,00;-0,01753
618,00;-0,01743
621,00;-0,01755
624,00;-0,01743
627,00;-0,01733
630,00;-0,01717
633,00;-0,01723
636,00;-0,01717
639,00;-0,01709
642,00;-0,01715
645,00;-0,01700
648,00;-0,01671
651,00;-0,01694
654,00;-0,01663
657,00;-0,01662
660,00;-0,01669
663,00;-0,01654
666,00;-0,01649
669,00;-0,01669
672,00;-0,01627
675,00;-0,01665
678,00;-0,01643
681,00;-0,01624
684,00;-0,01634
687,00;-0,01640
690,00;-0,01608
693,00;-0,01599
696,00;-0,01614
699,00;-0,01584
702,00;-0,01561
705,00;-0,01596
708,00;-0,01578
711,00;-0,01569
714,00;-0,01575
717,00;-0,01588
720,00;-0,01563
723,00;-0,01537
726,00;-0,01573
729,00;-0,01569
732,00;-0,01538
735,00;-0,01523
738,00;-0,01540
741,00;-0,01537
744,00;-0,01509
747,00;-0,01508
750,00;-0,01517
753,00;-0,01521
756,00;-0,01483
759,00;-0,01491
762,00;-0,01501
765,00;-0,01515
768,00;-0,01462
771,00;-0,01492
774,00;-0,01482
777,00;-0,01465
780,00;-0,01459
783,00;-0,01457
786,00;-0,01459
789,00;-0,01443
792,00;-0,01433
795,00;-0,01454
798,00;-0,01436
801,00;-0,01434
804,00;-0,01428
807,00;-0,01425
810,00;-0,01430
813,00;-0,01407
816,00;-0,01395
819,00;-0,01410
822,00;-0,01418
825,00;-0,01411
828,00;-0,01395
831,00;-0,01381
834,00;-0,01379
837,00;-0,01382
840,00;-0,01390
843,00;-0,01372
846,00;-0,01381
849,00;-0,01381
852,00;-0,01363
855,00;-0,01357
858,00;-0,01358
861,00;-0,01349
864,00;-0,01360
867,00;-0,01357
870,00;-0,01331
873,00;-0,01323
876,00;-0,01334
879,00;-0,01340
882,00;-0,01321
885,00;-0,01328
888,00;-0,01299
891,00;-0,01312
894,00;-0,01318
897,00;-0,01314
900,00;-0,01308
903,00;-0,01300
906,00;-0,01270
909,00;-0,01262
912,00;-0,01314
915,00;-0,01331
918,00;-0,01306
921,00;-0,01268
924,00;-0,01257
927,00;-0,01251
930,00;-0,01302
933,00;-0,01285
936,00;-0,01271
939,00;-0,01259
942,00;-0,01250
945,00;-0,01250
948,00;-0,01253
951,00;-0,01283
954,00;-0,01277
957,00;-0,01250
960,00;-0,01224
963,00;-0,01221
966,00;-0,01245
969,00;-0,01250
972,00;-0,01241
975,00;-0,01244
978,00;-0,01208
981,00;-0,01218
984,00;-0,01196
987,00;-0,01212
990,00;-0,01228
993,00;-0,01236
996,00;-0,01218
999,00;-0,01215
1002,00;-0,01190
1005,00;-0,01193
1008,00;-0,01212
1011,00;-0,01207
1014,00;-0,01189
1017,00;-0,01180
1020,00;-0,01160
1023,00;-0,01160
1026,00;-0,01164
1029,00;-0,01186
1032,00;-0,01170
1035,00;-0,01160
1038,00;-0,01155
1041,00;-0,01144
1044,00;-0,01146
1047,00;-0,01151
1050,00;-0,01163
1053,00;-0,01144
1056,00;-0,01140
1059,00;-0,01112
1062,00;-0,01089
1065,00;-0,01096
1068,00;-0,01103
1071,00;-0,01117
1074,00;-0,01118
1077,00;-0,01099
1080,00;-0,01112
1083,00;-0,01089
1086,00;-0,01103
1089,00;-0,01080
1092,00;-0,01089
1095,00;-0,01080
1098,00;-0,01080
1100,00;-0,01088

File: 20230310_Sample-09.txt
"File_221110_222318 - RawData"
"Wavelength nm.";"Abs."
300,00;0,08296
303,00;0,05402
306,00;0,03026
309,00;0,02377
312,00;0,01328
315,00;0,00569
318,00;-0,00127
321,00;-0,00467
324,00;-0,00964
327,00;-0,01305
330,00;-0,01564
333,00;-0,01640
336,00;-0,01814
339,00;-0,02049
342,00;-0,01999
345,00;-0,02058
348,00;-0,02211
351,00;-0,02153
354,00;-0,02144
357,00;-0,02278
360,00;-0,02116
363,00;-0,02267
366,00;-0,02174
369,00;-0,02174
372,00;-0,02214
375,00;-0,02087
378,00;-0,02220
381,00;-0,02048
384,00;-0,02237
387,00;-0,02066
390,00;-0,02223
393,00;-0,02045
396,00;-0,02222
399,00;-0,02025
402,00;-0,02214
405,00;-0,02022
408,00;-0,02208
411,00;-0,01987
414,00;-0,02156
417,00;-0,02042
420,00;-0,02051
423,00;-0,02090
426,00;-0,01967
429,00;-0,02139
432,00;-0,01909
435,00;-0,02078
438,00;-0,01994
441,00;-0,01927
444,00;-0,02097
447,00;-0,01866
450,00;-0,02029
453,00;-0,02016
456,00;-0,01851
459,00;-0,02061
462,00;-0,01930
465,00;-0,01852
468,00;-0,02057
471,00;-0,01881
474,00;-0,01840
477,00;-0,02043
480,00;-0,01854
483,00;-0,01819
486,00;-0,02020
489,00;-0,01860
492,00;-0,01765
495,00;-0,01964
498,00;-0,01898
501,00;-0,01735
504,00;-0,01917
507,00;-0,01947
510,00;-0,01736
513,00;-0,01776
516,00;-0,01941
519,00;-0,01823
522,00;-0,01697
525,00;-0,01860
528,00;-0,01909
531,00;-0,01721
534,00;-0,01706
537,00;-0,01888
540,00;-0,01871
543,00;-0,01678
546,00;-0,01672
549,00;-0,01851
552,00;-0,01826
555,00;-0,01648
558,00;-0,01620
561,00;-0,01825
564,00;-0,01834
567,00;-0,01656
570,00;-0,01601
573,00;-0,01723
576,00;-0,01814
579,00;-0,01709
582,00;-0,01550
585,00;-0,01624
588,00;-0,01764
591,00;-0,01773
594,00;-0,01590
597,00;-0,01534
600,00;-0,01634
603,00;-0,01794
606,00;-0,01726
609,00;-0,01559
612,00;-0,01503
615,00;-0,01627
618,00;-0,01746
621,00;-0,01712
624,00;-0,01534
627,00;-0,01465
630,00;-0,01553
633,00;-0,01706
636,00;-0,01703
639,00;-0,01558
642,00;-0,01457
645,00;-0,01471
648,00;-0,01610
651,00;-0,01691
654,00;-0,01633
657,00;-0,01498
660,00;-0,01404
663,00;-0,01460
666,00;-0,01604
669,00;-0,01666
672,00;-0,01578
675,00;-0,01442
678,00;-0,01358
681,00;-0,01416
684,00;-0,01550
687,00;-0,01645
690,00;-0,01582
693,00;-0,01459
696,00;-0,01347
699,00;-0,01346
702,00;-0,01437
705,00;-0,01573
708,00;-0,01595
711,00;-0,01515
714,00;-0,01384
717,00;-0,01300
720,00;-0,01315
723,00;-0,01434
726,00;-0,01537
729,00;-0,01556
732,00;-0,01486
735,00;-0,01347
738,00;-0,01263
741,00;-0,01276
744,00;-0,01361
747,00;-0,01485
750,00;-0,01532
753,00;-0,01500
756,00;-0,01369
759,00;-0,01273
762,00;-0,01239
765,00;-0,01280
768,00;-0,01341
771,00;-0,01468
774,00;-0,01489
777,00;-0,01437
780,00;-0,01340
783,00;-0,01236
786,00;-0,01186
789,00;-0,01199
792,00;-0,01286
795,00;-0,01392
798,00;-0,01440
801,00;-0,01443
804,00;-0,01352
807,00;-0,01237
810,00;-0,01149
813,00;-0,01143
816,00;-0,01195
819,00;-0,01285
822,00;-0,01364
825,00;-0,01418
828,00;-0,01398
831,00;-0,01321
834,00;-0,01218
837,00;-0,01137
840,00;-0,01106
843,00;-0,01137
846,00;-0,01199
849,00;-0,01303
852,00;-0,01343
855,00;-0,01364
858,00;-0,01335
861,00;-0,01251
864,00;-0,01154
867,00;-0,01086
870,00;-0,01060
873,00;-0,01080
876,00;-0,01155
879,00;-0,01236
882,00;-0,01286
885,00;-0,01340
888,00;-0,01306
891,00;-0,01256
894,00;-0,01176
897,00;-0,01082
900,00;-0,01036
903,00;-0,01039
906,00;-0,01065
909,00;-0,01106
912,00;-0,01227
915,00;-0,01299
918,00;-0,01315
921,00;-0,01292
924,00;-0,01237
927,00;-0,01138
930,00;-0,01096
933,00;-0,01013
936,00;-0,00983
939,00;-0,01012
942,00;-0,01057
945,00;-0,01128
948,00;-0,01184
951,00;-0,01251
954,00;-0,01268
957,00;-0,01253
960,00;-0,01198
963,00;-0,01129
966,00;-0,01059
969,00;-0,00989
972,00;-0,00945
975,00;-0,00951
978,00;-0,00984
981,00;-0,01051
984,00;-0,01097
987,00;-0,01161
990,00;-0,01213
993,00;-0,01236
996,00;-0,01225
999,00;-0,01183
1002,00;-0,01117
1005,00;-0,01035
1008,00;-0,00975
1011,00;-0,00940
1014,00;-0,00911
1017,00;-0,00922
1020,00;-0,00964
1023,00;-0,01022
1026,00;-0,01074
1029,00;-0,01143
1032,00;-0,01164
1035,00;-0,01178
1038,00;-0,01187
1041,00;-0,01122
1044,00;-0,01065
1047,00;-0,01009
1050,00;-0,00966
1053,00;-0,00890
1056,00;-0,00861
1059,00;-0,00841
1062,00;-0,00854
1065,00;-0,00897
1068,00;-0,00963
1071,00;-0,01027
1074,00;-0,01082
1077,00;-0,01086
1080,00;-0,01120
1083,00;-0,01108
1086,00;-0,01093
1089,00;-0,01033
1092,00;-0,00984
1095,00;-0,00922
1098,00;-0,00856
1100,00;-0,00850