Folder: L5_Difractiva/films/spectrometro uv1000

File: 20230310_Sample-01.txt
"File_221110_214932 - RawData"
"Wavelength nm.","Abs."
300.00,0.04910
303.00,0.00740
306.00,-0.00214
309.00,-0.00377
312.00,-0.00946
315.00,-0.01384
318.00,-0.01462
321.00,-0.01950
324.00,-0.02107
327.00,-0.02176
330.00,-0.02361
333.00,-0.02434
336.00,-0.02446
339.00,-0.02553
342.00,-0.02547
345.00,-0.02585
348.00,-0.02538
351.00,-0.02612
354.00,-0.02542
357.00,-0.02544
360.00,-0.02574
363.00,-0.02560
366.00,-0.02528
369.00,-0.02533
372.00,-0.02518
375.00,-0.02457
378.00,-0.02428
381.00,-0.02487
384.00,-0.02501
387.00,-0.02469
390.00,-0.02411
393.00,-0.02399
396.00,-0.02400
399.00,-0.02396
402.00,-0.02415
405.00,-0.02419
408.00,-0.02414
411.00,-0.02403
414.00,-0.02390
417.00,-0.02399
420.00,-0.02368
423.00,-0.02370
426.00,-0.02348
429.00,-0.02342
432.00,-0.02277
435.00,-0.02251
438.00,-0.02209
441.00,-0.02216
444.00,-0.02257
447.00,-0.02293
450.00,-0.02339
453.00,-0.02267
456.00,-0.02165
459.00,-0.02139
462.00,-0.02219
465.00,-0.02278
468.00,-0.02200
471.00,-0.02095
474.00,-0.02141
477.00,-0.02243
480.00,-0.02188
483.00,-0.02060
486.00,-0.02135
489.00,-0.02187
492.00,-0.02061
495.00,-0.02078
498.00,-0.02179
501.00,-0.02087
504.00,-0.02042
507.00,-0.02155
510.00,-0.02055
513.00,-0.02022
516.00,-0.02136
519.00,-0.02002
522.00,-0.02045
525.00,-0.02100
528.00,-0.01953
531.00,-0.02106
534.00,-0.01999
537.00,-0.01994
540.00,-0.02055
543.00,-0.01900
546.00,-0.02077
549.00,-0.01880
552.00,-0.02034
555.00,-0.01906
558.00,-0.01984
561.00,-0.01949
564.00,-0.01924
567.00,-0.01953
570.00,-0.01901
573.00,-0.01964
576.00,-0.01859
579.00,-0.01974
582.00,-0.01837
585.00,-0.01923
588.00,-0.01869
591.00,-0.01874
594.00,-0.01875
597.00,-0.01820
600.00,-0.01918
603.00,-0.01779
606.00,-0.01964
609.00,-0.01720
612.00,-0.01970
615.00,-0.01718
618.00,-0.01901
621.00,-0.01802
624.00,-0.01794
627.00,-0.01901
630.00,-0.01685
633.00,-0.01950
636.00,-0.01689
639.00,-0.01817
642.00,-0.01843
645.00,-0.01677
648.00,-0.01874
651.00,-0.01659
654.00,-0.01775
657.00,-0.01817
660.00,-0.01646
663.00,-0.01831
666.00,-0.01689
669.00,-0.01688
672.00,-0.01822
675.00,-0.01625
678.00,-0.01736
681.00,-0.01772
684.00,-0.01598
687.00,-0.01778
690.00,-0.01715
693.00,-0.01581
696.00,-0.01767
699.00,-0.01671
702.00,-0.01563
705.00,-0.01755
708.00,-0.01643
711.00,-0.01578
714.00,-0.01747
717.00,-0.01637
720.00,-0.01549
723.00,-0.01735
726.00,-0.01640
729.00,-0.01520
732.00,-0.01677
735.00,-0.01692
738.00,-0.01489
741.00,-0.01636
744.00,-0.01697
747.00,-0.01500
750.00,-0.01529
753.00,-0.01707
756.00,-0.01567
759.00,-0.01450
762.00,-0.01645
765.00,-0.01675
768.00,-0.01439
771.00,-0.01508
774.00,-0.01689
777.00,-0.01558
780.00,-0.01407
783.00,-0.01556
786.00,-0.01682
789.00,-0.01486
792.00,-0.01385
795.00,-0.01601
798.00,-0.01646
801.00,-0.01431
804.00,-0.01401
807.00,-0.01596
810.00,-0.01613
813.00,-0.01387
816.00,-0.01366
819.00,-0.01599
822.00,-0.01613
825.00,-0.01396
828.00,-0.01332
831.00,-0.01540
834.00,-0.01631
837.00,-0.01404
840.00,-0.01286
843.00,-0.01471
846.00,-0.01631
849.00,-0.01486
852.00,-0.01277
855.00,-0.01346
858.00,-0.01567
861.00,-0.01555
864.00,-0.01328
867.00,-0.01254
870.00,-0.01427
873.00,-0.01578
876.00,-0.01462
879.00,-0.01262
882.00,-0.01266
885.00,-0.01501
888.00,-0.01561
891.00,-0.01384
894.00,-0.01219
897.00,-0.01285
900.00,-0.01497
903.00,-0.01546
906.00,-0.01350
909.00,-0.01170
912.00,-0.01280
915.00,-0.01497
918.00,-0.01530
921.00,-0.01349
924.00,-0.01199
927.00,-0.01218
930.00,-0.01434
933.00,-0.01509
936.00,-0.01392
939.00,-0.01215
942.00,-0.01189
945.00,-0.01343
948.00,-0.01480
951.00,-0.01450
954.00,-0.01286
957.00,-0.01166
960.00,-0.01222
963.00,-0.01401
966.00,-0.01486
969.00,-0.01378
972.00,-0.01190
975.00,-0.01144
978.00,-0.01259
981.00,-0.01416
984.00,-0.01428
987.00,-0.01320
990.00,-0.01170
993.00,-0.01135
996.00,-0.01250
999.00,-0.01411
1002.00,-0.01431
1005.00,-0.01300
1008.00,-0.01166
1011.00,-0.01138
1014.00,-0.01212
1017.00,-0.01337
1020.00,-0.01392
1023.00,-0.01332
1026.00,-0.01178
1029.00,-0.01106
1032.00,-0.01152
1035.00,-0.01273
1038.00,-0.01379
1041.00,-0.01343
1044.00,-0.01233
1047.00,-0.01138
1050.00,-0.01125
1053.00,-0.01178
1056.00,-0.01294
1059.00,-0.01332
1062.00,-0.01271
1065.00,-0.01164
1068.00,-0.01073
1071.00,-0.01094
1074.00,-0.01184
1077.00,-0.01257
1080.00,-0.01311
1083.00,-0.01251
1086.00,-0.01157
1089.00,-0.01070
1092.00,-0.01062
1095.00,-0.01125
1098.00,-0.01225
1100.00,-0.01288

File: 20230310_Sample-02.txt
"File_221110_215921 - RawData"
"Wavelength nm.","Abs."
300.00,0.19911
303.00,0.15887
306.00,0.10924
309.00,0.08351
312.00,0.05763
315.00,0.04005
318.00,0.02611
321.00,0.01479
324.00,0.00624
327.00,-0.00101
330.00,-0.00674
333.00,-0.01108
336.00,-0.01474
339.00,-0.01750
342.00,-0.01926
345.00,-0.02036
348.00,-0.02112
351.00,-0.02220
354.00,-0.02216
357.00,-0.02237
360.00,-0.02240
363.00,-0.02293
366.00,-0.02327
369.00,-0.02362
372.00,-0.02380
375.00,-0.02330
378.00,-0.02206
381.00,-0.02176
384.00,-0.02261
387.00,-0.02354
390.00,-0.02290
393.00,-0.02203
396.00,-0.02258
399.00,-0.02354
402.00,-0.02269
405.00,-0.02159
408.00,-0.02319
411.00,-0.02278
414.00,-0.02109
417.00,-0.02275
420.00,-0.02228
423.00,-0.02071
426.00,-0.02264
429.00,-0.02170
432.00,-0.02090
435.00,-0.02248
438.00,-0.02017
441.00,-0.02228
444.00,-0.02063
447.00,-0.02106
450.00,-0.02153
453.00,-0.02011
456.00,-0.02184
459.00,-0.01976
462.00,-0.02208
465.00,-0.01967
468.00,-0.02193
471.00,-0.01945
474.00,-0.02138
477.00,-0.01932
480.00,-0.02138
483.00,-0.01918
486.00,-0.02122
489.00,-0.01898
492.00,-0.02098
495.00,-0.01900
498.00,-0.02040
501.00,-0.01938
504.00,-0.02003
507.00,-0.01999
510.00,-0.01898
513.00,-0.02048
516.00,-0.01833
519.00,-0.02032
522.00,-0.01881
525.00,-0.01921
528.00,-0.01978
531.00,-0.01814
534.00,-0.02014
537.00,-0.01822
540.00,-0.01863
543.00,-0.01961
546.00,-0.01729
549.00,-0.01936
552.00,-0.01860
555.00,-0.01740
558.00,-0.01962
561.00,-0.01770
564.00,-0.01753
567.00,-0.01942
570.00,-0.01723
573.00,-0.01753
576.00,-0.01932
579.00,-0.01680
582.00,-0.01747
585.00,-0.01910
588.00,-0.01682
591.00,-0.01678
594.00,-0.01866
597.00,-0.01700
600.00,-0.01614
603.00,-0.01877
606.00,-0.01746
609.00,-0.01569
612.00,-0.01770
615.00,-0.01813
618.00,-0.01555
621.00,-0.01643
624.00,-0.01843
627.00,-0.01666
630.00,-0.01500
633.00,-0.01729
636.00,-0.01787
639.00,-0.01534
642.00,-0.01527
645.00,-0.01752
648.00,-0.01678
651.00,-0.01443
654.00,-0.01526
657.00,-0.01753
660.00,-0.01653
663.00,-0.01418
666.00,-0.01521
669.00,-0.01735
672.00,-0.01608
675.00,-0.01418
678.00,-0.01462
681.00,-0.01675
684.00,-0.01639
687.00,-0.01414
690.00,-0.01389
693.00,-0.01598
696.00,-0.01651
699.00,-0.01445
702.00,-0.01314
705.00,-0.01489
708.00,-0.01628
711.00,-0.01538
714.00,-0.01335
717.00,-0.01335
720.00,-0.01520
723.00,-0.01599
726.00,-0.01422
729.00,-0.01271
732.00,-0.01337
735.00,-0.01523
738.00,-0.01543
741.00,-0.01372
744.00,-0.01239
747.00,-0.01312
750.00,-0.01489
753.00,-0.01527
756.00,-0.01346
759.00,-0.01205
762.00,-0.01268
765.00,-0.01437
768.00,-0.01463
771.00,-0.01384
774.00,-0.01207
777.00,-0.01170
780.00,-0.01309
783.00,-0.01457
786.00,-0.01431
789.00,-0.01242
792.00,-0.01143
795.00,-0.01193
798.00,-0.01335
801.00,-0.01428
804.00,-0.01349
807.00,-0.01180
810.00,-0.01088
813.00,-0.01167
816.00,-0.01321
819.00,-0.01367
822.00,-0.01299
825.00,-0.01152
828.00,-0.01071
831.00,-0.01123
834.00,-0.01257
837.00,-0.01343
840.00,-0.01303
843.00,-0.01158
846.00,-0.01048
849.00,-0.01054
852.00,-0.01164
855.00,-0.01282
858.00,-0.01305
861.00,-0.01204
864.00,-0.01065
867.00,-0.00989
870.00,-0.01030
873.00,-0.01158
876.00,-0.01268
879.00,-0.01273
882.00,-0.01155
885.00,-0.01022
888.00,-0.00937
891.00,-0.00998
894.00,-0.01123
897.00,-0.01218
900.00,-0.01248
903.00,-0.01169
906.00,-0.01019
909.00,-0.00902
912.00,-0.00940
915.00,-0.01048
918.00,-0.01175
921.00,-0.01234
924.00,-0.01195
927.00,-0.01060
930.00,-0.00961
933.00,-0.00873
936.00,-0.00908
939.00,-0.01035
942.00,-0.01146
945.00,-0.01216
948.00,-0.01161
951.00,-0.01064
954.00,-0.00916
957.00,-0.00844
960.00,-0.00861
963.00,-0.00978
966.00,-0.01109
969.00,-0.01183
972.00,-0.01160
975.00,-0.01079
978.00,-0.00948
981.00,-0.00856
984.00,-0.00806
987.00,-0.00853
990.00,-0.00974
993.00,-0.01100
996.00,-0.01175
999.00,-0.01172
1002.00,-0.01064
1005.00,-0.00906
1008.00,-0.00806
1011.00,-0.00774
1014.00,-0.00807
1017.00,-0.00909
1020.00,-0.01033
1023.00,-0.01132
1026.00,-0.01129
1029.00,-0.01067
1032.00,-0.00943
1035.00,-0.00830
1038.00,-0.00749
1041.00,-0.00717
1044.00,-0.00792
1047.00,-0.00923
1050.00,-0.01054
1053.00,-0.01112
1056.00,-0.01106
1059.00,-0.01009
1062.00,-0.00876
1065.00,-0.00769
1068.00,-0.00699
1071.00,-0.00690
1074.00,-0.00739
1077.00,-0.00815
1080.00,-0.00946
1083.00,-0.01038
1086.00,-0.01088
1089.00,-0.01062
1092.00,-0.00964
1095.00,-0.00827
1098.00,-0.00710
1100.00,-0.00653

File: 20230310_Sample-03.txt
"File_221110_220341 - RawData"
"Wavelength nm.","Abs."
300.00,0.04185
303.00,0.05632
306.00,0.02945
309.00,0.02048
312.00,0.01070
315.00,0.00049
318.00,-0.00352
321.00,-0.00935
324.00,-0.01563
327.00,-0.01715
330.00,-0.01961
333.00,-0.02110
336.00,-0.02170
339.00,-0.02403
342.00,-0.02533
345.00,-0.02472
348.00,-0.02460
351.00,-0.02606
354.00,-0.02617
357.00,-0.02545
360.00,-0.02567
363.00,-0.02675
366.00,-0.02547
369.00,-0.02576
372.00,-0.02655
375.00,-0.02504
378.00,-0.02559
381.00,-0.02574
384.00,-0.02493
387.00,-0.02637
390.00,-0.02473
393.00,-0.02582
396.00,-0.02513
399.00,-0.02525
402.00,-0.02542
405.00,-0.02464
408.00,-0.02544
411.00,-0.02423
414.00,-0.02525
417.00,-0.02400
420.00,-0.02490
423.00,-0.02371
426.00,-0.02463
429.00,-0.02357
432.00,-0.02406
435.00,-0.02347
438.00,-0.02370
441.00,-0.02362
444.00,-0.02298
447.00,-0.02370
450.00,-0.02252
453.00,-0.02367
456.00,-0.02235
459.00,-0.02307
462.00,-0.02292
465.00,-0.02200
468.00,-0.02324
471.00,-0.02184
474.00,-0.02217
477.00,-0.02261
480.00,-0.02110
483.00,-0.02245
486.00,-0.02156
489.00,-0.02087
492.00,-0.02238
495.00,-0.02092
498.00,-0.02060
501.00,-0.02194
504.00,-0.02055
507.00,-0.02072
510.00,-0.02185
513.00,-0.02045
516.00,-0.02008
519.00,-0.02170
522.00,-0.02045
525.00,-0.01961
528.00,-0.02138
531.00,-0.02068
534.00,-0.01910
537.00,-0.02074
540.00,-0.02101
543.00,-0.01906
546.00,-0.01926
549.00,-0.02100
552.00,-0.01978
555.00,-0.01834
558.00,-0.01987
561.00,-0.02077
564.00,-0.01874
567.00,-0.01816
570.00,-0.02013
573.00,-0.02034
576.00,-0.01822
579.00,-0.01814
582.00,-0.02005
585.00,-0.02016
588.00,-0.01804
591.00,-0.01782
594.00,-0.01936
597.00,-0.02013
600.00,-0.01816
603.00,-0.01741
606.00,-0.01900
609.00,-0.02011
612.00,-0.01878
615.00,-0.01695
618.00,-0.01775
621.00,-0.01971
624.00,-0.01942
627.00,-0.01761
630.00,-0.01685
633.00,-0.01826
636.00,-0.01962
639.00,-0.01895
642.00,-0.01715
645.00,-0.01677
648.00,-0.01820
651.00,-0.01933
654.00,-0.01863
657.00,-0.01692
660.00,-0.01651
663.00,-0.01779
666.00,-0.01918
669.00,-0.01888
672.00,-0.01680
675.00,-0.01630
678.00,-0.01701
681.00,-0.01857
684.00,-0.01903
687.00,-0.01790
690.00,-0.01614
693.00,-0.01619
696.00,-0.01750
699.00,-0.01852
702.00,-0.01857
705.00,-0.01730
708.00,-0.01598
711.00,-0.01607
714.00,-0.01733
717.00,-0.01855
720.00,-0.01826
723.00,-0.01712
726.00,-0.01601
729.00,-0.01581
732.00,-0.01669
735.00,-0.01797
738.00,-0.01842
741.00,-0.01756
744.00,-0.01628
747.00,-0.01559
750.00,-0.01596
753.00,-0.01707
756.00,-0.01788
759.00,-0.01791
762.00,-0.01717
765.00,-0.01613
768.00,-0.01514
771.00,-0.01598
774.00,-0.01683
777.00,-0.01765
780.00,-0.01773
783.00,-0.01703
786.00,-0.01601
789.00,-0.01526
792.00,-0.01540
795.00,-0.01634
798.00,-0.01717
801.00,-0.01762
804.00,-0.01729
807.00,-0.01643
810.00,-0.01537
813.00,-0.01506
816.00,-0.01541
819.00,-0.01617
822.00,-0.01683
825.00,-0.01724
828.00,-0.01703
831.00,-0.01613
834.00,-0.01546
837.00,-0.01489
840.00,-0.01505
843.00,-0.01579
846.00,-0.01654
849.00,-0.01701
852.00,-0.01675
855.00,-0.01634
858.00,-0.01567
861.00,-0.01497
864.00,-0.01469
867.00,-0.01503
870.00,-0.01553
873.00,-0.01619
876.00,-0.01660
879.00,-0.01651
882.00,-0.01595
885.00,-0.01537
888.00,-0.01477
891.00,-0.01456
894.00,-0.01468
897.00,-0.01506
900.00,-0.01573
903.00,-0.01619
906.00,-0.01620
909.00,-0.01582
912.00,-0.01564
915.00,-0.01518
918.00,-0.01460
921.00,-0.01434
924.00,-0.01457
927.00,-0.01482
930.00,-0.01559
933.00,-0.01567
936.00,-0.01587
939.00,-0.01578
942.00,-0.01535
945.00,-0.01491
948.00,-0.01442
951.00,-0.01430
954.00,-0.01430
957.00,-0.01447
960.00,-0.01485
963.00,-0.01532
966.00,-0.01567
969.00,-0.01553
972.00,-0.01527
975.00,-0.01506
978.00,-0.01456
981.00,-0.01436
984.00,-0.01392
987.00,-0.01393
990.00,-0.01418
993.00,-0.01450
996.00,-0.01483
999.00,-0.01526
1002.00,-0.01535
1005.00,-0.01517
1008.00,-0.01485
1011.00,-0.01465
1014.00,-0.01410
1017.00,-0.01376
1020.00,-0.01363
1023.00,-0.01378
1026.00,-0.01376
1029.00,-0.01404
1032.00,-0.01428
1035.00,-0.01465
1038.00,-0.01479
1041.00,-0.01471
1044.00,-0.01445
1047.00,-0.01430
1050.00,-0.01418
1053.00,-0.01372
1056.00,-0.01332
1059.00,-0.01311
1062.00,-0.01309
1065.00,-0.01340
1068.00,-0.01358
1071.00,-0.01392
1074.00,-0.01408
1077.00,-0.01410
1080.00,-0.01430
1083.00,-0.01401
1086.00,-0.01399
1089.00,-0.01358
1092.00,-0.01332
1095.00,-0.01306
1098.00,-0.01274
1100.00,-0.01282

File: 20230310_Sample-04.txt
"File_221110_220658 - RawData"
"Wavelength nm.","Abs."
300.00,-0.48444
303.00,-0.20660
306.00,-0.12840
309.00,-0.06889
312.00,-0.03937
315.00,-0.02579
318.00,-0.02042
321.00,-0.02367
324.00,-0.02301
327.00,-0.02022
330.00,-0.02423
333.00,-0.02432
336.00,-0.02139
339.00,-0.02625
342.00,-0.02441
345.00,-0.02321
348.00,-0.02658
351.00,-0.02257
354.00,-0.02586
357.00,-0.02414
360.00,-0.02448
363.00,-0.02534
366.00,-0.02304
369.00,-0.02567
372.00,-0.02216
375.00,-0.02611
378.00,-0.02145
381.00,-0.02577
384.00,-0.02168
387.00,-0.02551
390.00,-0.02222
393.00,-0.02390
396.00,-0.02347
399.00,-0.02226
402.00,-0.02480
405.00,-0.02084
408.00,-0.02553
411.00,-0.02049
414.00,-0.02406
417.00,-0.02274
420.00,-0.02080
423.00,-0.02492
426.00,-0.01970
429.00,-0.02371
432.00,-0.02251
435.00,-0.01959
438.00,-0.02438
441.00,-0.02090
444.00,-0.02014
447.00,-0.02437
450.00,-0.01987
453.00,-0.02098
456.00,-0.02408
459.00,-0.01932
462.00,-0.02032
465.00,-0.02399
468.00,-0.01956
471.00,-0.01932
474.00,-0.02370
477.00,-0.02016
480.00,-0.01828
483.00,-0.02274
486.00,-0.02164
489.00,-0.01736
492.00,-0.02011
495.00,-0.02315
498.00,-0.01891
501.00,-0.01768
504.00,-0.02246
507.00,-0.02199
510.00,-0.01730
513.00,-0.01840
516.00,-0.02251
519.00,-0.02097
522.00,-0.01665
525.00,-0.01860
528.00,-0.02242
531.00,-0.02049
534.00,-0.01624
537.00,-0.01775
540.00,-0.02177
543.00,-0.02113
546.00,-0.01662
549.00,-0.01620
552.00,-0.02060
555.00,-0.02191
558.00,-0.01807
561.00,-0.01540
564.00,-0.01775
567.00,-0.02147
570.00,-0.02055
573.00,-0.01637
576.00,-0.01521
579.00,-0.01854
582.00,-0.02150
585.00,-0.01993
588.00,-0.01585
591.00,-0.01476
594.00,-0.01772
597.00,-0.02106
600.00,-0.01987
603.00,-0.01596
606.00,-0.01425
609.00,-0.01671
612.00,-0.02007
615.00,-0.02051
618.00,-0.01750
621.00,-0.01433
624.00,-0.01462
627.00,-0.01773
630.00,-0.02048
633.00,-0.01968
636.00,-0.01640
639.00,-0.01370
642.00,-0.01457
645.00,-0.01772
648.00,-0.02010
651.00,-0.01941
654.00,-0.01631
657.00,-0.01361
660.00,-0.01364
663.00,-0.01616
666.00,-0.01910
669.00,-0.01990
672.00,-0.01738
675.00,-0.01462
678.00,-0.01277
681.00,-0.01398
684.00,-0.01675
687.00,-0.01935
690.00,-0.01929
693.00,-0.01675
696.00,-0.01373
699.00,-0.01244
702.00,-0.01346
705.00,-0.01630
708.00,-0.01865
711.00,-0.01918
714.00,-0.01724
717.00,-0.01436
720.00,-0.01233
723.00,-0.01245
726.00,-0.01448
729.00,-0.01698
732.00,-0.01862
735.00,-0.01848
738.00,-0.01637
741.00,-0.01364
744.00,-0.01189
747.00,-0.01213
750.00,-0.01382
753.00,-0.01649
756.00,-0.01813
759.00,-0.01826
762.00,-0.01669
765.00,-0.01425
768.00,-0.01184
771.00,-0.01143
774.00,-0.01222
777.00,-0.01431
780.00,-0.01657
783.00,-0.01790
786.00,-0.01773
789.00,-0.01598
792.00,-0.01373
795.00,-0.01190
798.00,-0.01103
801.00,-0.01172
804.00,-0.01341
807.00,-0.01563
810.00,-0.01724
813.00,-0.01750
816.00,-0.01649
819.00,-0.01466
822.00,-0.01254
825.00,-0.01093
828.00,-0.01053
831.00,-0.01152
834.00,-0.01332
837.00,-0.01517
840.00,-0.01675
843.00,-0.01723
846.00,-0.01653
849.00,-0.01479
852.00,-0.01260
855.00,-0.01094
858.00,-0.01022
861.00,-0.01050
864.00,-0.01163
867.00,-0.01338
870.00,-0.01512
873.00,-0.01640
876.00,-0.01678
879.00,-0.01595
882.00,-0.01440
885.00,-0.01276
888.00,-0.01102
891.00,-0.01003
894.00,-0.00981
897.00,-0.01047
900.00,-0.01207
903.00,-0.01381
906.00,-0.01523
909.00,-0.01599
912.00,-0.01651
915.00,-0.01578
918.00,-0.01421
921.00,-0.01231
924.00,-0.01077
927.00,-0.00948
930.00,-0.00952
933.00,-0.00964
936.00,-0.01080
939.00,-0.01248
942.00,-0.01398
945.00,-0.01526
948.00,-0.01576
951.00,-0.01585
954.00,-0.01514
957.00,-0.01378
960.00,-0.01208
963.00,-0.01073
966.00,-0.00969
969.00,-0.00903
972.00,-0.00903
975.00,-0.00998
978.00,-0.01103
981.00,-0.01260
984.00,-0.01372
987.00,-0.01485
990.00,-0.01534
993.00,-0.01537
996.00,-0.01483
999.00,-0.01379
1002.00,-0.01227
1005.00,-0.01071
1008.00,-0.00957
1011.00,-0.00883
1014.00,-0.00845
1017.00,-0.00876
1020.00,-0.00949
1023.00,-0.01071
1026.00,-0.01189
1029.00,-0.01332
1032.00,-0.01428
1035.00,-0.01482
1038.00,-0.01509
1041.00,-0.01445
1044.00,-0.01352
1047.00,-0.01241
1050.00,-0.01117
1053.00,-0.00978
1056.00,-0.00868
1059.00,-0.00792
1062.00,-0.00764
1065.00,-0.00803
1068.00,-0.00882
1071.00,-0.00992
1074.00,-0.01109
1077.00,-0.01193
1080.00,-0.01318
1083.00,-0.01381
1086.00,-0.01437
1089.00,-0.01408
1092.00,-0.01363
1095.00,-0.01274
1098.00,-0.01167
1100.00,-0.01100

File: 20230310_Sample-05.txt
"File_221110_220917 - RawData"
"Wavelength nm.","Abs."
300.00,0.08766
303.00,0.07350
306.00,0.04930
309.00,0.03363
312.00,0.01868
315.00,0.01373
318.00,0.00066
321.00,-0.00249
324.00,-0.00977
327.00,-0.01411
330.00,-0.01405
333.00,-0.02066
336.00,-0.01735
339.00,-0.02431
342.00,-0.01959
345.00,-0.02608
348.00,-0.02036
351.00,-0.02759
354.00,-0.02126
357.00,-0.02774
360.00,-0.02155
363.00,-0.02768
366.00,-0.02274
369.00,-0.02573
372.00,-0.02437
375.00,-0.02299
378.00,-0.02657
381.00,-0.02077
384.00,-0.02724
387.00,-0.02240
390.00,-0.02330
393.00,-0.02679
396.00,-0.02049
399.00,-0.02605
402.00,-0.02405
405.00,-0.02089
408.00,-0.02715
411.00,-0.02202
414.00,-0.02144
417.00,-0.02681
420.00,-0.02118
423.00,-0.02132
426.00,-0.02652
429.00,-0.02090
432.00,-0.02029
435.00,-0.02611
438.00,-0.02197
441.00,-0.01872
444.00,-0.02431
447.00,-0.02419
450.00,-0.01862
453.00,-0.02185
456.00,-0.02568
459.00,-0.02071
462.00,-0.01825
465.00,-0.02371
468.00,-0.02470
471.00,-0.01871
474.00,-0.01865
477.00,-0.02451
480.00,-0.02345
483.00,-0.01799
486.00,-0.01875
489.00,-0.02370
492.00,-0.02373
495.00,-0.01807
498.00,-0.01732
501.00,-0.02281
504.00,-0.02443
507.00,-0.01959
510.00,-0.01640
513.00,-0.01988
516.00,-0.02422
519.00,-0.02240
522.00,-0.01729
525.00,-0.01672
528.00,-0.02139
531.00,-0.02412
534.00,-0.02069
537.00,-0.01628
540.00,-0.01648
543.00,-0.02106
546.00,-0.02373
549.00,-0.02089
552.00,-0.01619
555.00,-0.01570
558.00,-0.01939
561.00,-0.02310
564.00,-0.02208
567.00,-0.01778
570.00,-0.01479
573.00,-0.01657
576.00,-0.02103
579.00,-0.02301
582.00,-0.02061
585.00,-0.01625
588.00,-0.01427
591.00,-0.01639
594.00,-0.02040
597.00,-0.02264
600.00,-0.02043
603.00,-0.01653
606.00,-0.01387
609.00,-0.01538
612.00,-0.01877
615.00,-0.02180
618.00,-0.02159
621.00,-0.01840
624.00,-0.01466
627.00,-0.01361
630.00,-0.01572
633.00,-0.01926
636.00,-0.02153
639.00,-0.02098
642.00,-0.01781
645.00,-0.01424
648.00,-0.01289
651.00,-0.01439
654.00,-0.01785
657.00,-0.02066
660.00,-0.02107
663.00,-0.01878
666.00,-0.01549
669.00,-0.01292
672.00,-0.01282
675.00,-0.01514
678.00,-0.01831
681.00,-0.02058
684.00,-0.02061
687.00,-0.01845
690.00,-0.01517
693.00,-0.01262
696.00,-0.01201
699.00,-0.01364
702.00,-0.01648
705.00,-0.01933
708.00,-0.02034
711.00,-0.01935
714.00,-0.01665
717.00,-0.01364
720.00,-0.01169
723.00,-0.01164
726.00,-0.01361
729.00,-0.01614
732.00,-0.01852
735.00,-0.01973
738.00,-0.01909
741.00,-0.01685
744.00,-0.01411
747.00,-0.01192
750.00,-0.01091
753.00,-0.01175
756.00,-0.01358
759.00,-0.01619
762.00,-0.01849
765.00,-0.01942
768.00,-0.01831
771.00,-0.01657
774.00,-0.01392
777.00,-0.01167
780.00,-0.01038
783.00,-0.01060
786.00,-0.01218
789.00,-0.01425
792.00,-0.01649
795.00,-0.01828
798.00,-0.01865
801.00,-0.01782
804.00,-0.01575
807.00,-0.01328
810.00,-0.01108
813.00,-0.00992
816.00,-0.00995
819.00,-0.01089
822.00,-0.01276
825.00,-0.01494
828.00,-0.01678
831.00,-0.01790
834.00,-0.01781
837.00,-0.01666
840.00,-0.01488
843.00,-0.01274
846.00,-0.01096
849.00,-0.00969
852.00,-0.00914
855.00,-0.00984
858.00,-0.01134
861.00,-0.01332
864.00,-0.01506
867.00,-0.01649
870.00,-0.01729
873.00,-0.01718
876.00,-0.01617
879.00,-0.01445
882.00,-0.01233
885.00,-0.01067
888.00,-0.00917
891.00,-0.00870
894.00,-0.00887
897.00,-0.00980
900.00,-0.01143
903.00,-0.01334
906.00,-0.01492
909.00,-0.01599
912.00,-0.01714
915.00,-0.01689
918.00,-0.01596
921.00,-0.01428
924.00,-0.01256
927.00,-0.01079
930.00,-0.00957
933.00,-0.00833
936.00,-0.00803
939.00,-0.00854
942.00,-0.00954
945.00,-0.01093
948.00,-0.01239
951.00,-0.01404
954.00,-0.01540
957.00,-0.01610
960.00,-0.01628
963.00,-0.01585
966.00,-0.01492
969.00,-0.01341
972.00,-0.01178
975.00,-0.01042
978.00,-0.00899
981.00,-0.00816
984.00,-0.00746
987.00,-0.00772
990.00,-0.00835
993.00,-0.00952
996.00,-0.01077
999.00,-0.01237
1002.00,-0.01376
1005.00,-0.01472
1008.00,-0.01553
1011.00,-0.01584
1014.00,-0.01541
1017.00,-0.01482
1020.00,-0.01363
1023.00,-0.01222
1026.00,-0.01070
1029.00,-0.00945
1032.00,-0.00813
1035.00,-0.00732
1038.00,-0.00700
1041.00,-0.00690
1044.00,-0.00740
1047.00,-0.00838
1050.00,-0.00961
1053.00,-0.01073
1056.00,-0.01201
1059.00,-0.01302
1062.00,-0.01393
1065.00,-0.01469
1068.00,-0.01497
1071.00,-0.01479
1074.00,-0.01434
1077.00,-0.01320
1080.00,-0.01218
1083.00,-0.01083
1086.00,-0.00977
1089.00,-0.00842
1092.00,-0.00740
1095.00,-0.00658
1098.00,-0.00615
1100.00,-0.00620